File: data/Argonne Datasets/batteries/discharge_curves_time_capacity.csv
time_h,voltage_0.5C,discharge_capacity_0.5C_Ah,discharge_capacity_0.5C_mAh,specific_capacity_0.5C_mAh_g,voltage_1.0C,discharge_capacity_1.0C_Ah,discharge_capacity_1.0C_mAh,specific_capacity_1.0C_mAh_g,voltage_2.0C,discharge_capacity_2.0C_Ah,discharge_capacity_2.0C_mAh,specific_capacity_2.0C_mAh_g,voltage_3.0C,discharge_capacity_3.0C_Ah,discharge_capacity_3.0C_mAh,specific_capacity_3.0C_mAh_g
0.0,4.08997,0.0,0.0,0.0,4.03636,0.0,0.0,0.0,3.96121,0.0,0.0,0.0,3.90173,0.0,0.0,0.0
0.00305556,4.06823,0.00763889,7.63889,0.453557,3.99492,0.0152778,15.2778,0.907115,3.8865,0.0305556,30.5556,1.81423,3.80267,0.0458333,45.8333,2.72134
0.00611111,4.05531,0.0152778,15.2778,0.907115,3.97299,0.0305556,30.5556,1.81423,3.85803,0.0611111,61.1111,3.62846,3.76727,0.0916667,91.6667,5.44269
0.00916667,4.04617,0.0229167,22.9167,1.36067,3.95942,0.0458333,45.8333,2.72134,3.84298,0.0916667,91.6667,5.44269,3.72748,0.1375,137.5,8.16403
0.0122222,4.03915,0.0305556,30.5556,1.81423,3.95043,0.0611111,61.1111,3.62846,3.83092,0.122222,122.222,7.25692,3.67061,0.183333,183.333,10.8854
0.0152778,4.03353,0.0381944,38.1944,2.26779,3.94431,0.0763889,76.3889,4.53557,3.81853,0.152778,152.778,9.07115,3.0911,0.229167,229.167,13.6067
0.0183333,4.0289,0.0458333,45.8333,2.72134,3.94007,0.0916667,91.6667,5.44269,3.80512,0.183333,183.333,10.8854,2.79562,0.275,275,16.3281
0.0213889,4.02501,0.0534722,53.4722,3.1749,3.93708,0.106944,106.944,6.3498,3.79097,0.213889,213.889,12.6996,2.59965,0.320833,320.833,19.0494
0.0241667,4.02199,0.0604167,60.4167,3.58723,3.93509,0.120833,120.833,7.17445,3.77793,0.241667,241.667,14.3489,,,,
0.0272222,4.01911,0.0680556,68.0556,4.04078,3.93342,0.136111,136.111,8.08157,3.76387,0.272222,272.222,16.1631,,,,
0.0302778,4.01664,0.0756944,75.6944,4.49434,3.93208,0.151389,151.389,8.98868,3.75046,0.302778,302.778,17.9774,,,,
0.0333333,4.01448,0.0833333,83.3333,4.9479,3.93089,0.166667,166.667,9.8958,3.73789,0.333333,333.333,19.7916,,,,
0.0363889,4.01261,0.0909722,90.9722,5.40146,3.92975,0.181944,181.944,10.8029,3.72623,0.363889,363.889,21.6058,,,,
0.0394444,4.01096,0.0986111,98.6111,5.85501,3.92857,0.197222,197.222,11.71,3.71544,0.394444,394.444,23.4201,,,,
0.0425,4.00953,0.10625,106.25,6.30857,3.92729,0.2125,212.5,12.6171,3.70549,0.425,425,25.2343,,,,
0.0455556,4.00827,0.113889,113.889,6.76213,3.92586,0.227778,227.778,13.5243,3.69628,0.455556,455.556,27.0485,,,,
0.0486111,4.00716,0.121528,121.528,7.21569,3.92427,0.243056,243.056,14.4314,3.68773,0.486111,486.111,28.8627,,,,
0.0516667,4.00619,0.129167,129.167,7.66924,3.9225,0.258333,258.333,15.3385,3.67976,0.516667,516.667,30.677,,,,
0.0547222,4.00533,0.136806,136.806,8.1228,3.92055,0.273611,273.611,16.2456,3.67229,0.547222,547.222,32.4912,,,,
0.0577778,4.00458,0.144444,144.444,8.57636,3.91841,0.288889,288.889,17.1527,3.66527,0.577778,577.778,34.3054,,,,
0.0608333,4.00392,0.152083,152.083,9.02992,3.91611,0.304167,304.167,18.0598,3.65862,0.608333,608.333,36.1197,,,,
0.0638889,4.00334,0.159722,159.722,9.48347,3.91364,0.319444,319.444,18.9669,3.6523,0.638889,638.889,37.9339,,,,
0.0669444,4.00283,0.167361,167.361,9.93703,3.91102,0.334722,334.722,19.8741,3.64625,0.669444,669.444,39.7481,,,,
0.07,4.00238,0.175,175,10.3906,3.90827,0.35,350,20.7812,3.64042,0.7,700,41.5624,,,,
0.0730556,4.00197,0.182639,182.639,10.8441,3.9054,0.365278,365.278,21.6883,3.63479,0.730556,730.556,43.3766,,,,
0.0761111,4.00162,0.190278,190.278,11.2977,3.90242,0.380556,380.556,22.5954,3.6293,0.761111,761.111,45.1908,,,,
0.0791667,4.00129,0.197917,197.917,11.7513,3.89936,0.395833,395.833,23.5025,3.62393,0.791667,791.667,47.005,,,,
0.0822222,4.001,0.205556,205.556,12.2048,3.89622,0.411111,411.111,24.4096,3.61864,0.822222,822.222,48.8193,,,,
0.0852778,4.00073,0.213194,213.194,12.6584,3.89302,0.426389,426.389,25.3168,3.61339,0.852778,852.778,50.6335,,,,
0.0883333,4.00048,0.220833,220.833,13.1119,3.88977,0.441667,441.667,26.2239,3.60816,0.883333,883.333,52.4477,,,,
0.0913889,4.00024,0.228472,228.472,13.5655,3.88649,0.456944,456.944,27.131,3.60292,0.913889,913.889,54.262,,,,
0.0944444,4.00002,0.236111,236.111,14.019,3.88318,0.472222,472.222,28.0381,3.59763,0.944444,944.444,56.0762,,,,
0.0975,3.99979,0.24375,243.75,14.4726,3.87985,0.4875,487.5,28.9452,3.59227,0.975,975,57.8904,,,,
0.100556,3.99957,0.251389,251.389,14.9262,3.87652,0.502778,502.778,29.8523,3.58681,1.00556,1005.56,59.7047,,,,
0.103611,3.99934,0.259028,259.028,15.3797,3.87319,0.518056,518.056,30.7594,3.58123,1.03611,1036.11,61.5189,,,,
0.106667,3.9991,0.266667,266.667,15.8333,3.86988,0.533333,533.333,31.6666,3.57551,1.06667,1066.67,63.3331,,,,
0.109722,3.99886,0.274306,274.306,16.2868,3.86657,0.548611,548.611,32.5737,3.56961,1.09722,1097.22,65.1473,,,,
0.112778,3.9986,0.281944,281.944,16.7404,3.86329,0.563889,563.889,33.4808,3.56352,1.12778,1127.78,66.9616,,,,
0.115833,3.99833,0.289583,289.583,17.194,3.86003,0.579167,579.167,34.3879,3.55721,1.15833,1158.33,68.7758,,,,
0.118889,3.99804,0.297222,297.222,17.6475,3.85681,0.594444,594.444,35.295,3.55067,1.18889,1188.89,70.59,,,,
0.121944,3.99773,0.304861,304.861,18.1011,3.85361,0.609722,609.722,36.2021,3.54387,1.21944,1219.44,72.4043,,,,
0.125,3.9974,0.3125,312.5,18.5546,3.85046,0.625,625,37.1092,3.53678,1.25,1250,74.2185,,,,
0.128056,3.99705,0.320139,320.139,19.0082,3.84734,0.640278,640.278,38.0164,3.52938,1.28056,1280.56,76.0327,,,,
0.131111,3.99668,0.327778,327.778,19.4617,3.84426,0.655556,655.556,38.9235,3.52165,1.31111,1311.11,77.847,,,,
0.134167,3.99627,0.335417,335.417,19.9153,3.84122,0.670833,670.833,39.8306,3.51355,1.34167,1341.67,79.6612,,,,
0.137222,3.99585,0.343056,343.056,20.3689,3.83823,0.686111,686.111,40.7377,3.50508,1.37222,1372.22,81.4754,,,,
0.140278,3.99539,0.350694,350.694,20.8224,3.83528,0.701389,701.389,41.6448,3.49625,1.40278,1402.78,83.2896,,,,
0.143333,3.99491,0.358333,358.333,21.276,3.83237,0.716667,716.667,42.5519,3.48711,1.43333,1433.33,85.1039,,,,
0.146389,3.9944,0.365972,365.972,21.7295,3.82951,0.731944,731.944,43.4591,3.47774,1.46389,1463.89,86.9181,,,,
0.149444,3.99385,0.373611,373.611,22.1831,3.82669,0.747222,747.222,44.3662,3.46831,1.49444,1494.44,88.7323,,,,
0.1525,3.99328,0.38125,381.25,22.6366,3.82391,0.7625,762.5,45.2733,3.45897,1.525,1525,90.5466,,,,
0.155556,3.99268,0.388889,388.889,23.0902,3.82118,0.777778,777.778,46.1804,3.44991,1.55556,1555.56,92.3608,,,,
0.158611,3.99205,0.396528,396.528,23.5438,3.81848,0.793056,793.056,47.0875,3.44129,1.58611,1586.11,94.175,,,,
0.161667,3.99139,0.404167,404.167,23.9973,3.81583,0.808333,808.333,47.9946,3.4332,1.61667,1616.67,95.9893,,,,
0.164722,3.9907,0.411806,411.806,24.4509,3.81322,0.823611,823.611,48.9017,3.4257,1.64722,1647.22,97.8035,,,,
0.167778,3.98998,0.419444,419.444,24.9044,3.81065,0.838889,838.889,49.8089,3.41878,1.67778,1677.78,99.6177,,,,
0.170833,3.98923,0.427083,427.083,25.358,3.80811,0.854167,854.167,50.716,3.41241,1.70833,1708.33,101.432,,,,
0.173889,3.98845,0.434722,434.722,25.8115,3.80561,0.869444,869.444,51.6231,3.40652,1.73889,1738.89,103.246,,,,
0.176944,3.98764,0.442361,442.361,26.2651,3.80314,0.884722,884.722,52.5302,3.40106,1.76944,1769.44,105.06,,,,
0.18,3.98681,0.45,450,26.7187,3.80071,0.9,900,53.4373,3.39596,1.8,1800,106.875,,,,
0.183056,3.98594,0.457639,457.639,27.1722,3.79831,0.915278,915.278,54.3444,3.39116,1.83056,1830.56,108.689,,,,
0.186111,3.98505,0.465278,465.278,27.6258,3.79594,0.930556,930.556,55.2515,3.38662,1.86111,1861.11,110.503,,,,
0.189167,3.98413,0.472917,472.917,28.0793,3.7936,0.945833,945.833,56.1587,3.38229,1.89167,1891.67,112.317,,,,
0.192222,3.98318,0.480556,480.556,28.5329,3.79128,0.961111,961.111,57.0658,3.37814,1.92222,1922.22,114.132,,,,
0.195278,3.98221,0.488194,488.194,28.9864,3.78899,0.976389,976.389,57.9729,3.37414,1.95278,1952.78,115.946,,,,
0.198333,3.98122,0.495833,495.833,29.44,3.78672,0.991667,991.667,58.88,3.37026,1.98333,1983.33,117.76,,,,
0.201389,3.9802,0.503472,503.472,29.8936,3.78447,1.00694,1006.94,59.7871,3.36648,2.01389,2013.89,119.574,,,,
0.204444,3.97915,0.511111,511.111,30.3471,3.78224,1.02222,1022.22,60.6942,3.36279,2.04444,2044.44,121.388,,,,
0.2075,3.97809,0.51875,518.75,30.8007,3.78003,1.0375,1037.5,61.6014,3.35918,2.075,2075,123.203,,,,
0.210556,3.977,0.526389,526.389,31.2542,3.77784,1.05278,1052.78,62.5085,3.35562,2.10556,2105.56,125.017,,,,
0.213611,3.97589,0.534028,534.028,31.7078,3.77566,1.06806,1068.06,63.4156,3.35212,2.13611,2136.11,126.831,,,,
0.216667,3.97476,0.541667,541.667,32.1613,3.77349,1.08333,1083.33,64.3227,3.34867,2.16667,2166.67,128.645,,,,
0.219722,3.97361,0.549306,549.306,32.6149,3.77132,1.09861,1098.61,65.2298,3.34525,2.19722,2197.22,130.46,,,,
0.222778,3.97244,0.556944,556.944,33.0685,3.76917,1.11389,1113.89,66.1369,3.34186,2.22778,2227.78,132.274,,,,
0.225833,3.97126,0.564583,564.583,33.522,3.76702,1.12917,1129.17,67.044,3.33849,2.25833,2258.33,134.088,,,,
0.228889,3.97006,0.572222,572.222,33.9756,3.76486,1.14444,1144.44,67.9512,3.33514,2.28889,2288.89,135.902,,,,
0.231944,3.96884,0.579861,579.861,34.4291,3.76271,1.15972,1159.72,68.8583,3.33181,2.31944,2319.44,137.717,,,,
0.235,3.96761,0.5875,587.5,34.8827,3.76055,1.175,1175,69.7654,3.32849,2.35,2350,139.531,,,,
0.238056,3.96636,0.595139,595.139,35.3363,3.75839,1.19028,1190.28,70.6725,3.32517,2.38056,2380.56,141.345,,,,
0.241111,3.9651,0.602778,602.778,35.7898,3.75621,1.20556,1205.56,71.5796,3.32186,2.41111,2411.11,143.159,,,,
0.244167,3.96382,0.610417,610.417,36.2434,3.75401,1.22083,1220.83,72.4867,3.31855,2.44167,2441.67,144.973,,,,
0.247222,3.96253,0.618056,618.056,36.6969,3.7518,1.23611,1236.11,73.3938,3.31523,2.47222,2472.22,146.788,,,,
0.250278,3.96124,0.625694,625.694,37.1505,3.74956,1.25139,1251.39,74.301,3.3119,2.50278,2502.78,148.602,,,,
0.253333,3.95993,0.633333,633.333,37.604,3.74729,1.26667,1266.67,75.2081,3.30856,2.53333,2533.33,150.416,,,,
0.256389,3.95861,0.640972,640.972,38.0576,3.74498,1.28194,1281.94,76.1152,3.3052,2.56389,2563.89,152.23,,,,
0.259444,3.95728,0.648611,648.611,38.5112,3.74264,1.29722,1297.22,77.0223,3.30182,2.59444,2594.44,154.045,,,,
0.2625,3.95594,0.65625,656.25,38.9647,3.74025,1.3125,1312.5,77.9294,3.29841,2.625,2625,155.859,,,,
0.265556,3.9546,0.663889,663.889,39.4183,3.7378,1.32778,1327.78,78.8365,3.29497,2.65556,2655.56,157.673,,,,
0.268611,3.95325,0.671528,671.528,39.8718,3.73529,1.34306,1343.06,79.7437,3.2915,2.68611,2686.11,159.487,,,,
0.271667,3.95189,0.679167,679.167,40.3254,3.73271,1.35833,1358.33,80.6508,3.28798,2.71667,2716.67,161.302,,,,
0.274722,3.95053,0.686806,686.806,40.7789,3.73006,1.37361,1373.61,81.5579,3.28441,2.74722,2747.22,163.116,,,,
0.277778,3.94916,0.694444,694.444,41.2325,3.72732,1.38889,1388.89,82.465,3.28078,2.77778,2777.78,164.93,,,,
0.280833,3.94779,0.702083,702.083,41.6861,3.72448,1.40417,1404.17,83.3721,3.27709,2.80833,2808.33,166.744,,,,
0.283889,3.94641,0.709722,709.722,42.1396,3.72154,1.41944,1419.44,84.2792,3.27332,2.83889,2838.89,168.558,,,,
0.286944,3.94503,0.717361,717.361,42.5932,3.7185,1.43472,1434.72,85.1863,3.26946,2.86944,2869.44,170.373,,,,
0.29,3.94365,0.725,725.0,43.0467,3.71533,1.45,1450,86.0935,3.2655,2.9,2900,172.187,,,,
0.293056,3.94227,0.732639,732.639,43.5003,3.71205,1.46528,1465.28,87.0006,3.26143,2.93056,2930.56,174.001,,,,
0.296111,3.94088,0.740278,740.278,43.9538,3.70863,1.48056,1480.56,87.9077,3.25723,2.96111,2961.11,175.815,,,,
0.299167,3.93949,0.747917,747.917,44.4074,3.70509,1.49583,1495.83,88.8148,3.2529,2.99167,2991.67,177.63,,,,
0.302222,3.9381,0.755556,755.556,44.861,3.70143,1.51111,1511.11,89.7219,3.24841,3.02222,3022.22,179.444,,,,
0.305278,3.93672,0.763194,763.194,45.3145,3.69765,1.52639,1526.39,90.629,3.24375,3.05278,3052.78,181.258,,,,
0.308333,3.93533,0.770833,770.833,45.7681,3.69375,1.54167,1541.67,91.5361,3.23891,3.08333,3083.33,183.072,,,,
0.311389,3.93394,0.778472,778.472,46.2216,3.68976,1.55694,1556.94,92.4433,3.23388,3.11389,3113.89,184.887,,,,
0.314444,3.93255,0.786111,786.111,46.6752,3.68568,1.57222,1572.22,93.3504,3.22863,3.14444,3144.44,186.701,,,,
0.3175,3.93117,0.79375,793.75,47.1287,3.68153,1.5875,1587.5,94.2575,3.22317,3.175,3175,188.515,,,,
0.320556,3.92978,0.801389,801.389,47.5823,3.67734,1.60278,1602.78,95.1646,3.21749,3.20556,3205.56,190.329,,,,
0.323611,3.9284,0.809028,809.028,48.0359,3.67312,1.61806,1618.06,96.0717,3.21158,3.23611,3236.11,192.143,,,,
0.326667,3.92702,0.816667,816.667,48.4894,3.66889,1.63333,1633.33,96.9788,3.20546,3.26667,3266.67,193.958,,,,
0.329722,3.92564,0.824306,824.306,48.943,3.66468,1.64861,1648.61,97.886,3.19913,3.29722,3297.22,195.772,,,,
0.332778,3.92427,0.831944,831.944,49.3965,3.6605,1.66389,1663.89,98.7931,3.19262,3.32778,3327.78,197.586,,,,
0.335833,3.9229,0.839583,839.583,49.8501,3.65637,1.67917,1679.17,99.7002,3.18594,3.35833,3358.33,199.4,,,,
0.338889,3.92153,0.847222,847.222,50.3036,3.6523,1.69444,1694.44,100.607,3.17913,3.38889,3388.89,201.215,,,,
0.341944,3.92017,0.854861,854.861,50.7572,3.64831,1.70972,1709.72,101.514,3.17223,3.41944,3419.44,203.029,,,,
0.345,3.91881,0.8625,862.5,51.2108,3.64438,1.725,1725,102.422,3.16527,3.45,3450,204.843,,,,
0.348056,3.91746,0.870139,870.139,51.6643,3.64054,1.74028,1740.28,103.329,3.15829,3.48056,3480.56,206.657,,,,
0.351111,3.91611,0.877778,877.778,52.1179,3.63678,1.75556,1755.56,104.236,3.15133,3.51111,3511.11,208.472,,,,
0.354167,3.91476,0.885417,885.417,52.5714,3.6331,1.77083,1770.83,105.143,3.14444,3.54167,3541.67,210.286,,,,
0.357222,3.91342,0.893056,893.056,53.025,3.6295,1.78611,1786.11,106.05,3.13765,3.57222,3572.22,212.1,,,,
0.360278,3.91209,0.900694,900.694,53.4786,3.62597,1.80139,1801.39,106.957,3.13097,3.60278,3602.78,213.914,,,,
0.363333,3.91076,0.908333,908.333,53.9321,3.62252,1.81667,1816.67,107.864,3.12444,3.63333,3633.33,215.728,,,,
0.366389,3.90943,0.915972,915.972,54.3857,3.61913,1.83194,1831.94,108.771,3.11807,3.66389,3663.89,217.543,,,,
0.369444,3.90811,0.923611,923.611,54.8392,3.6158,1.84722,1847.22,109.678,3.11185,3.69444,3694.44,219.357,,,,
0.3725,3.9068,0.93125,931.25,55.2928,3.61253,1.8625,1862.5,110.586,3.10579,3.725,3725,221.171,,,,
0.375556,3.90549,0.938889,938.889,55.7463,3.60932,1.87778,1877.78,111.493,3.09987,3.75556,3755.56,222.985,,,,
0.378611,3.90419,0.946528,946.528,56.1999,3.60616,1.89306,1893.06,112.4,3.09407,3.78611,3786.11,224.8,,,,
0.381667,3.90289,0.954167,954.167,56.6535,3.60305,1.90833,1908.33,113.307,3.08837,3.81667,3816.67,226.614,,,,
0.384722,3.9016,0.961806,961.806,57.107,3.59998,1.92361,1923.61,114.214,3.08272,3.84722,3847.22,228.428,,,,
0.387778,3.90031,0.969444,969.444,57.5606,3.59696,1.93889,1938.89,115.121,3.07708,3.87778,3877.78,230.242,,,,
0.390833,3.89904,0.977083,977.083,58.0141,3.59399,1.95417,1954.17,116.028,3.07138,3.90833,3908.33,232.057,,,,
0.393889,3.89776,0.984722,984.722,58.4677,3.59106,1.96944,1969.44,116.935,3.06556,3.93889,3938.89,233.871,,,,
0.396944,3.8965,0.992361,992.361,58.9212,3.58816,1.98472,1984.72,117.842,3.05951,3.96944,3969.44,235.685,,,,
0.4,3.89523,1.0,1000.0,59.3748,3.58531,2,2000,118.75,3.05313,4,4000,237.499,,,,
0.403056,3.89398,1.00764,1007.64,59.8284,3.5825,2.01528,2015.28,119.657,3.04626,4.03056,4030.56,239.313,,,,
0.406111,3.89273,1.01528,1015.28,60.2819,3.57974,2.03056,2030.56,120.564,3.03874,4.06111,4061.11,241.128,,,,
0.409167,3.89149,1.02292,1022.92,60.7355,3.57701,2.04583,2045.83,121.471,3.03034,4.09167,4091.67,242.942,,,,
0.412222,3.89025,1.03056,1030.56,61.189,3.57432,2.06111,2061.11,122.378,3.02083,4.12222,4122.22,244.756,,,,
0.415278,3.88902,1.03819,1038.19,61.6426,3.57167,2.07639,2076.39,123.285,3.00993,4.15278,4152.78,246.57,,,,
0.418333,3.88779,1.04583,1045.83,62.0961,3.56906,2.09167,2091.67,124.192,2.99739,4.18333,4183.33,248.385,,,,
0.421389,3.88658,1.05347,1053.47,62.5497,3.56648,2.10694,2106.94,125.099,2.98297,4.21389,4213.89,250.199,,,,
0.424444,3.88536,1.06111,1061.11,63.0033,3.56395,2.12222,2122.22,126.007,2.96655,4.24444,4244.44,252.013,,,,
0.4275,3.88415,1.06875,1068.75,63.4568,3.56146,2.1375,2137.5,126.914,2.94816,4.275,4275,253.827,,,,
0.430556,3.88295,1.07639,1076.39,63.9104,3.559,2.15278,2152.78,127.821,2.92802,4.30556,4305.56,255.641,,,,
0.433611,3.88176,1.08403,1084.03,64.3639,3.55659,2.16806,2168.06,128.728,2.90655,4.33611,4336.11,257.456,,,,
0.436667,3.88057,1.09167,1091.67,64.8175,3.55421,2.18333,2183.33,129.635,2.88425,4.36667,4366.67,259.27,,,,
0.439722,3.87938,1.09931,1099.31,65.271,3.55186,2.19861,2198.61,130.542,2.86166,4.39722,4397.22,261.084,,,,
0.442778,3.8782,1.10694,1106.94,65.7246,3.54956,2.21389,2213.89,131.449,2.83915,4.42778,4427.78,262.898,,,,
0.445833,3.87702,1.11458,1114.58,66.1782,3.54728,2.22917,2229.17,132.356,2.81688,4.45833,4458.33,264.713,,,,
0.448889,3.87585,1.12222,1122.22,66.6317,3.54505,2.24444,2244.44,133.263,2.79474,4.48889,4488.89,266.527,,,,
0.451944,3.87469,1.12986,1129.86,67.0853,3.54284,2.25972,2259.72,134.171,2.77237,4.51944,4519.44,268.341,,,,
0.455,3.87353,1.1375,1137.5,67.5388,3.54067,2.275,2275,135.078,2.74922,4.55,4550,270.155,,,,
0.458056,3.87237,1.14514,1145.14,67.9924,3.53853,2.29028,2290.28,135.985,2.72454,4.58056,4580.56,271.97,,,,
0.461111,3.87122,1.15278,1152.78,68.4459,3.53642,2.30556,2305.56,136.892,2.69748,4.61111,4611.11,273.784,,,,
0.464167,3.87007,1.16042,1160.42,68.8995,3.53434,2.32083,2320.83,137.799,2.66704,4.64167,4641.67,275.598,,,,
0.467222,3.86892,1.16806,1168.06,69.3531,3.53229,2.33611,2336.11,138.706,2.63206,4.67222,4672.22,277.412,,,,
0.470278,3.86778,1.17569,1175.69,69.8066,3.53027,2.35139,2351.39,139.613,2.59119,4.70278,4702.78,279.226,,,,
0.473333,3.86665,1.18333,1183.33,70.2602,3.52827,2.36667,2366.67,140.52,2.54286,4.73333,4733.33,281.041,,,,
0.476111,3.86562,1.19028,1190.28,70.6725,3.52647,2.38056,2380.56,141.345,,,,,,,,
0.479167,3.86448,1.19792,1197.92,71.1261,3.52452,2.39583,2395.83,142.252,,,,,,,,
0.482222,3.86336,1.20556,1205.56,71.5796,3.52259,2.41111,2411.11,143.159,,,,,,,,
0.485278,3.86223,1.21319,1213.19,72.0332,3.52068,2.42639,2426.39,144.066,,,,,,,,
0.488333,3.86111,1.22083,1220.83,72.4867,3.51879,2.44167,2441.67,144.973,,,,,,,,
0.491389,3.85998,1.22847,1228.47,72.9403,3.51692,2.45694,2456.94,145.881,,,,,,,,
0.494444,3.85886,1.23611,1236.11,73.3938,3.51507,2.47222,2472.22,146.788,,,,,,,,
0.4975,3.85774,1.24375,1243.75,73.8474,3.51324,2.4875,2487.5,147.695,,,,,,,,
0.500556,3.85662,1.25139,1251.39,74.301,3.51142,2.50278,2502.78,148.602,,,,,,,,
0.503611,3.8555,1.25903,1259.03,74.7545,3.50961,2.51806,2518.06,149.509,,,,,,,,
0.506667,3.85438,1.26667,1266.67,75.2081,3.50782,2.53333,2533.33,150.416,,,,,,,,
0.509722,3.85326,1.27431,1274.31,75.6616,3.50604,2.54861,2548.61,151.323,,,,,,,,
0.512778,3.85214,1.28194,1281.94,76.1152,3.50427,2.56389,2563.89,152.23,,,,,,,,
0.515833,3.85102,1.28958,1289.58,76.5688,3.50252,2.57917,2579.17,153.138,,,,,,,,
0.518889,3.84989,1.29722,1297.22,77.0223,3.50077,2.59444,2594.44,154.045,,,,,,,,
0.521944,3.84877,1.30486,1304.86,77.4759,3.49903,2.60972,2609.72,154.952,,,,,,,,
0.525,3.84764,1.3125,1312.5,77.9294,3.49729,2.625,2625,155.859,,,,,,,,
0.528056,3.8465,1.32014,1320.14,78.383,3.49556,2.64028,2640.28,156.766,,,,,,,,
0.531111,3.84536,1.32778,1327.78,78.8365,3.49384,2.65556,2655.56,157.673,,,,,,,,
0.534167,3.84422,1.33542,1335.42,79.2901,3.49212,2.67083,2670.83,158.58,,,,,,,,
0.537222,3.84307,1.34306,1343.06,79.7437,3.4904,2.68611,2686.11,159.487,,,,,,,,
0.540278,3.84191,1.35069,1350.69,80.1972,3.48869,2.70139,2701.39,160.394,,,,,,,,
0.543333,3.84075,1.35833,1358.33,80.6508,3.48697,2.71667,2716.67,161.302,,,,,,,,
0.546389,3.83957,1.36597,1365.97,81.1043,3.48525,2.73194,2731.94,162.209,,,,,,,,
0.549444,3.83839,1.37361,1373.61,81.5579,3.48354,2.74722,2747.22,163.116,,,,,,,,
0.5525,3.8372,1.38125,1381.25,82.0114,3.48182,2.7625,2762.5,164.023,,,,,,,,
0.555556,3.836,1.38889,1388.89,82.465,3.48009,2.77778,2777.78,164.93,,,,,,,,
0.558611,3.83478,1.39653,1396.53,82.9186,3.47836,2.79306,2793.06,165.837,,,,,,,,
0.561667,3.83356,1.40417,1404.17,83.3721,3.47663,2.80833,2808.33,166.744,,,,,,,,
0.564722,3.83232,1.41181,1411.81,83.8257,3.47489,2.82361,2823.61,167.651,,,,,,,,
0.567778,3.83106,1.41944,1419.44,84.2792,3.47314,2.83889,2838.89,168.558,,,,,,,,
0.570833,3.82979,1.42708,1427.08,84.7328,3.47138,2.85417,2854.17,169.466,,,,,,,,
0.573889,3.8285,1.43472,1434.72,85.1863,3.4696,2.86944,2869.44,170.373,,,,,,,,
0.576944,3.8272,1.44236,1442.36,85.6399,3.46782,2.88472,2884.72,171.28,,,,,,,,
0.58,3.82587,1.45,1450.0,86.0935,3.46602,2.9,2900,172.187,,,,,,,,
0.583056,3.82453,1.45764,1457.64,86.547,3.46421,2.91528,2915.28,173.094,,,,,,,,
0.586111,3.82316,1.46528,1465.28,87.0006,3.46238,2.93056,2930.56,174.001,,,,,,,,
0.589167,3.82178,1.47292,1472.92,87.4541,3.46054,2.94583,2945.83,174.908,,,,,,,,
0.592222,3.82037,1.48056,1480.56,87.9077,3.45867,2.96111,2961.11,175.815,,,,,,,,
0.595278,3.81894,1.48819,1488.19,88.3612,3.45678,2.97639,2976.39,176.722,,,,,,,,
0.598333,3.81748,1.49583,1495.83,88.8148,3.45487,2.99167,2991.67,177.63,,,,,,,,
0.601389,3.816,1.50347,1503.47,89.2684,3.45293,3.00694,3006.94,178.537,,,,,,,,
0.604444,3.81449,1.51111,1511.11,89.7219,3.45097,3.02222,3022.22,179.444,,,,,,,,
0.6075,3.81296,1.51875,1518.75,90.1755,3.44898,3.0375,3037.5,180.351,,,,,,,,
0.610556,3.8114,1.52639,1526.39,90.629,3.44696,3.05278,3052.78,181.258,,,,,,,,
0.613611,3.80981,1.53403,1534.03,91.0826,3.44491,3.06806,3068.06,182.165,,,,,,,,
0.616667,3.8082,1.54167,1541.67,91.5361,3.44282,3.08333,3083.33,183.072,,,,,,,,
0.619722,3.80656,1.54931,1549.31,91.9897,3.4407,3.09861,3098.61,183.979,,,,,,,,
0.622778,3.8049,1.55694,1556.94,92.4433,3.43853,3.11389,3113.89,184.887,,,,,,,,
0.625833,3.80321,1.56458,1564.58,92.8968,3.43633,3.12917,3129.17,185.794,,,,,,,,
0.628889,3.80149,1.57222,1572.22,93.3504,3.43409,3.14444,3144.44,186.701,,,,,,,,
0.631944,3.79976,1.57986,1579.86,93.8039,3.43181,3.15972,3159.72,187.608,,,,,,,,
0.635,3.798,1.5875,1587.5,94.2575,3.42948,3.175,3175,188.515,,,,,,,,
0.638056,3.79621,1.59514,1595.14,94.7111,3.4271,3.19028,3190.28,189.422,,,,,,,,
0.641111,3.79441,1.60278,1602.78,95.1646,3.42467,3.20556,3205.56,190.329,,,,,,,,
0.644167,3.7926,1.61042,1610.42,95.6182,3.4222,3.22083,3220.83,191.236,,,,,,,,
0.647222,3.79076,1.61806,1618.06,96.0717,3.41967,3.23611,3236.11,192.143,,,,,,,,
0.650278,3.78892,1.62569,1625.69,96.5253,3.41709,3.25139,3251.39,193.051,,,,,,,,
0.653333,3.78706,1.63333,1633.33,96.9788,3.41445,3.26667,3266.67,193.958,,,,,,,,
0.656389,3.78519,1.64097,1640.97,97.4324,3.41177,3.28194,3281.94,194.865,,,,,,,,
0.659444,3.78332,1.64861,1648.61,97.886,3.40903,3.29722,3297.22,195.772,,,,,,,,
0.6625,3.78144,1.65625,1656.25,98.3395,3.40623,3.3125,3312.5,196.679,,,,,,,,
0.665556,3.77956,1.66389,1663.89,98.7931,3.40338,3.32778,3327.78,197.586,,,,,,,,
0.668611,3.77768,1.67153,1671.53,99.2466,3.40048,3.34306,3343.06,198.493,,,,,,,,
0.671667,3.77581,1.67917,1679.17,99.7002,3.39752,3.35833,3358.33,199.4,,,,,,,,
0.674722,3.77394,1.68681,1686.81,100.154,3.39452,3.37361,3373.61,200.307,,,,,,,,
0.677778,3.77208,1.69444,1694.44,100.607,3.39146,3.38889,3388.89,201.215,,,,,,,,
0.680833,3.77022,1.70208,1702.08,101.061,3.38836,3.40417,3404.17,202.122,,,,,,,,
0.683889,3.76838,1.70972,1709.72,101.514,3.38522,3.41944,3419.44,203.029,,,,,,,,
0.686944,3.76655,1.71736,1717.36,101.968,3.38203,3.43472,3434.72,203.936,,,,,,,,
0.69,3.76474,1.725,1725,102.422,3.37881,3.45,3450,204.843,,,,,,,,
0.693056,3.76294,1.73264,1732.64,102.875,3.37556,3.46528,3465.28,205.75,,,,,,,,
0.696111,3.76116,1.74028,1740.28,103.329,3.37227,3.48056,3480.56,206.657,,,,,,,,
0.699167,3.75939,1.74792,1747.92,103.782,3.36897,3.49583,3495.83,207.564,,,,,,,,
0.702222,3.75764,1.75556,1755.56,104.236,3.36564,3.51111,3511.11,208.472,,,,,,,,
0.705278,3.75592,1.76319,1763.19,104.689,3.3623,3.52639,3526.39,209.379,,,,,,,,
0.708333,3.75421,1.77083,1770.83,105.143,3.35895,3.54167,3541.67,210.286,,,,,,,,
0.711389,3.75251,1.77847,1778.47,105.596,3.3556,3.55694,3556.94,211.193,,,,,,,,
0.714444,3.75084,1.78611,1786.11,106.05,3.35224,3.57222,3572.22,212.1,,,,,,,,
0.7175,3.74918,1.79375,1793.75,106.504,3.3489,3.5875,3587.5,213.007,,,,,,,,
0.720556,3.74755,1.80139,1801.39,106.957,3.34556,3.60278,3602.78,213.914,,,,,,,,
0.723611,3.74593,1.80903,1809.03,107.411,3.34224,3.61806,3618.06,214.821,,,,,,,,
0.726667,3.74432,1.81667,1816.67,107.864,3.33894,3.63333,3633.33,215.728,,,,,,,,
0.729722,3.74273,1.82431,1824.31,108.318,3.33566,3.64861,3648.61,216.636,,,,,,,,
0.732778,3.74116,1.83194,1831.94,108.771,3.33242,3.66389,3663.89,217.543,,,,,,,,
0.735833,3.7396,1.83958,1839.58,109.225,3.3292,3.67917,3679.17,218.45,,,,,,,,
0.738889,3.73806,1.84722,1847.22,109.678,3.32602,3.69444,3694.44,219.357,,,,,,,,
0.741944,3.73653,1.85486,1854.86,110.132,3.32288,3.70972,3709.72,220.264,,,,,,,,
0.745,3.73501,1.8625,1862.5,110.586,3.31977,3.725,3725,221.171,,,,,,,,
0.748056,3.7335,1.87014,1870.14,111.039,3.31671,3.74028,3740.28,222.078,,,,,,,,
0.751111,3.732,1.87778,1877.78,111.493,3.31368,3.75556,3755.56,222.985,,,,,,,,
0.754167,3.73051,1.88542,1885.42,111.946,3.3107,3.77083,3770.83,223.892,,,,,,,,
0.757222,3.72903,1.89306,1893.06,112.4,3.30776,3.78611,3786.11,224.8,,,,,,,,
0.760278,3.72755,1.90069,1900.69,112.853,3.30486,3.80139,3801.39,225.707,,,,,,,,
0.763333,3.72608,1.90833,1908.33,113.307,3.302,3.81667,3816.67,226.614,,,,,,,,
0.766389,3.72462,1.91597,1915.97,113.76,3.29918,3.83194,3831.94,227.521,,,,,,,,
0.769444,3.72316,1.92361,1923.61,114.214,3.2964,3.84722,3847.22,228.428,,,,,,,,
0.7725,3.72171,1.93125,1931.25,114.668,3.29365,3.8625,3862.5,229.335,,,,,,,,
0.775556,3.72026,1.93889,1938.89,115.121,3.29092,3.87778,3877.78,230.242,,,,,,,,
0.778611,3.71882,1.94653,1946.53,115.575,3.28823,3.89306,3893.06,231.149,,,,,,,,
0.781667,3.71738,1.95417,1954.17,116.028,3.28556,3.90833,3908.33,232.057,,,,,,,,
0.784722,3.71594,1.96181,1961.81,116.482,3.28291,3.92361,3923.61,232.964,,,,,,,,
0.787778,3.7145,1.96944,1969.44,116.935,3.28026,3.93889,3938.89,233.871,,,,,,,,
0.790833,3.71306,1.97708,1977.08,117.389,3.27763,3.95417,3954.17,234.778,,,,,,,,
0.793889,3.71162,1.98472,1984.72,117.842,3.275,3.96944,3969.44,235.685,,,,,,,,
0.796944,3.71019,1.99236,1992.36,118.296,3.27235,3.98472,3984.72,236.592,,,,,,,,
0.8,3.70875,2,2000,118.75,3.26969,4,4000,237.499,,,,,,,,
0.803056,3.70732,2.00764,2007.64,119.203,3.26701,4.01528,4015.28,238.406,,,,,,,,
0.806111,3.70588,2.01528,2015.28,119.657,3.26429,4.03056,4030.56,239.313,,,,,,,,
0.809167,3.70444,2.02292,2022.92,120.11,3.26152,4.04583,4045.83,240.221,,,,,,,,
0.812222,3.703,2.03056,2030.56,120.564,3.25868,4.06111,4061.11,241.128,,,,,,,,
0.815278,3.70157,2.03819,2038.19,121.017,3.25578,4.07639,4076.39,242.035,,,,,,,,
0.818333,3.70013,2.04583,2045.83,121.471,3.25278,4.09167,4091.67,242.942,,,,,,,,
0.821389,3.69869,2.05347,2053.47,121.925,3.24967,4.10694,4106.94,243.849,,,,,,,,
0.824444,3.69725,2.06111,2061.11,122.378,3.24642,4.12222,4122.22,244.756,,,,,,,,
0.8275,3.69581,2.06875,2068.75,122.832,3.24303,4.1375,4137.5,245.663,,,,,,,,
0.830556,3.69436,2.07639,2076.39,123.285,3.23945,4.15278,4152.78,246.57,,,,,,,,
0.833611,3.69292,2.08403,2084.03,123.739,3.23567,4.16806,4168.06,247.477,,,,,,,,
0.836667,3.69148,2.09167,2091.67,124.192,3.23166,4.18333,4183.33,248.385,,,,,,,,
0.839722,3.69003,2.09931,2099.31,124.646,3.22738,4.19861,4198.61,249.292,,,,,,,,
0.842778,3.68859,2.10694,2106.94,125.099,3.22281,4.21389,4213.89,250.199,,,,,,,,
0.845833,3.68714,2.11458,2114.58,125.553,3.2179,4.22917,4229.17,251.106,,,,,,,,
0.848889,3.6857,2.12222,2122.22,126.007,3.21262,4.24444,4244.44,252.013,,,,,,,,
0.851944,3.68425,2.12986,2129.86,126.46,3.20695,4.25972,4259.72,252.92,,,,,,,,
0.855,3.68281,2.1375,2137.5,126.914,3.20085,4.275,4275,253.827,,,,,,,,
0.858056,3.68136,2.14514,2145.14,127.367,3.19429,4.29028,4290.28,254.734,,,,,,,,
0.861111,3.67992,2.15278,2152.78,127.821,3.18725,4.30556,4305.56,255.641,,,,,,,,
0.864167,3.67847,2.16042,2160.42,128.274,3.17972,4.32083,4320.83,256.549,,,,,,,,
0.867222,3.67703,2.16806,2168.06,128.728,3.17168,4.33611,4336.11,257.456,,,,,,,,
0.870278,3.67559,2.17569,2175.69,129.181,3.16315,4.35139,4351.39,258.363,,,,,,,,
0.873333,3.67415,2.18333,2183.33,129.635,3.15415,4.36667,4366.67,259.27,,,,,,,,
0.876389,3.67272,2.19097,2190.97,130.089,3.1447,4.38194,4381.94,260.177,,,,,,,,
0.879444,3.67128,2.19861,2198.61,130.542,3.13485,4.39722,4397.22,261.084,,,,,,,,
0.8825,3.66985,2.20625,2206.25,130.996,3.12466,4.4125,4412.5,261.991,,,,,,,,
0.885556,3.66842,2.21389,2213.89,131.449,3.11417,4.42778,4427.78,262.898,,,,,,,,
0.888611,3.66699,2.22153,2221.53,131.903,3.10347,4.44306,4443.06,263.806,,,,,,,,
0.891667,3.66557,2.22917,2229.17,132.356,3.09263,4.45833,4458.33,264.713,,,,,,,,
0.894722,3.66415,2.23681,2236.81,132.81,3.0817,4.47361,4473.61,265.62,,,,,,,,
0.897778,3.66274,2.24444,2244.44,133.263,3.07074,4.48889,4488.89,266.527,,,,,,,,
0.900833,3.66133,2.25208,2252.08,133.717,3.05981,4.50417,4504.17,267.434,,,,,,,,
0.903889,3.65992,2.25972,2259.72,134.171,3.04894,4.51944,4519.44,268.341,,,,,,,,
0.906944,3.65852,2.26736,2267.36,134.624,3.03813,4.53472,4534.72,269.248,,,,,,,,
0.91,3.65712,2.275,2275,135.078,3.0274,4.55,4550,270.155,,,,,,,,
0.913056,3.65573,2.28264,2282.64,135.531,3.01673,4.56528,4565.28,271.062,,,,,,,,
0.916111,3.65434,2.29028,2290.28,135.985,3.00608,4.58056,4580.56,271.97,,,,,,,,
0.919167,3.65296,2.29792,2297.92,136.438,2.9954,4.59583,4595.83,272.877,,,,,,,,
0.922222,3.65158,2.30556,2305.56,136.892,2.98464,4.61111,4611.11,273.784,,,,,,,,
0.925278,3.65022,2.31319,2313.19,137.345,2.97372,4.62639,4626.39,274.691,,,,,,,,
0.928333,3.64885,2.32083,2320.83,137.799,2.96256,4.64167,4641.67,275.598,,,,,,,,
0.931389,3.6475,2.32847,2328.47,138.253,2.95106,4.65694,4656.94,276.505,,,,,,,,
0.934444,3.64615,2.33611,2336.11,138.706,2.93914,4.67222,4672.22,277.412,,,,,,,,
0.9375,3.64481,2.34375,2343.75,139.16,2.92667,4.6875,4687.5,278.319,,,,,,,,
0.940556,3.64347,2.35139,2351.39,139.613,2.91353,4.70278,4702.78,279.226,,,,,,,,
0.943611,3.64214,2.35903,2359.03,140.067,2.89962,4.71806,4718.06,280.134,,,,,,,,
0.946667,3.64082,2.36667,2366.67,140.52,2.88478,4.73333,4733.33,281.041,,,,,,,,
0.949722,3.63951,2.37431,2374.31,140.974,2.86888,4.74861,4748.61,281.948,,,,,,,,
0.952778,3.6382,2.38194,2381.94,141.427,2.85175,4.76389,4763.89,282.855,,,,,,,,
0.955833,3.6369,2.38958,2389.58,141.881,2.83324,4.77917,4779.17,283.762,,,,,,,,
0.958889,3.63561,2.39722,2397.22,142.335,2.81316,4.79444,4794.44,284.669,,,,,,,,
0.961944,3.63433,2.40486,2404.86,142.788,2.79131,4.80972,4809.72,285.576,,,,,,,,
0.965,3.63306,2.4125,2412.5,143.242,2.76747,4.825,4825,286.483,,,,,,,,
0.968056,3.63179,2.42014,2420.14,143.695,2.74141,4.84028,4840.28,287.391,,,,,,,,
0.971111,3.63053,2.42778,2427.78,144.149,2.71287,4.85556,4855.56,288.298,,,,,,,,
0.974167,3.62928,2.43542,2435.42,144.602,2.68156,4.87083,4870.83,289.205,,,,,,,,
0.977222,3.62804,2.44306,2443.06,145.056,2.64717,4.88611,4886.11,290.112,,,,,,,,
0.980278,3.62681,2.45069,2450.69,145.509,2.60934,4.90139,4901.39,291.019,,,,,,,,
0.983333,3.62558,2.45833,2458.33,145.963,2.5677,4.91667,4916.67,291.926,,,,,,,,
0.986389,3.62436,2.46597,2465.97,146.417,2.52182,4.93194,4931.94,292.833,,,,,,,,
0.989167,3.62327,2.47292,2472.92,146.829,,,,,,,,,,,,
0.992222,3.62206,2.48056,2480.56,147.282,,,,,,,,,,,,
0.995278,3.62087,2.48819,2488.19,147.736,,,,,,,,,,,,
0.998333,3.61969,2.49583,2495.83,148.19,,,,,,,,,,,,
1.00139,3.61851,2.50347,2503.47,148.643,,,,,,,,,,,,
1.00444,3.61734,2.51111,2511.11,149.097,,,,,,,,,,,,
1.0075,3.61618,2.51875,2518.75,149.55,,,,,,,,,,,,
1.01056,3.61503,2.52639,2526.39,150.004,,,,,,,,,,,,
1.01361,3.61388,2.53403,2534.03,150.457,,,,,,,,,,,,
1.01667,3.61274,2.54167,2541.67,150.911,,,,,,,,,,,,
1.01972,3.61161,2.54931,2549.31,151.365,,,,,,,,,,,,
1.02278,3.61049,2.55694,2556.94,151.818,,,,,,,,,,,,
1.02583,3.60938,2.56458,2564.58,152.272,,,,,,,,,,,,
1.02889,3.60827,2.57222,2572.22,152.725,,,,,,,,,,,,
1.03194,3.60717,2.57986,2579.86,153.179,,,,,,,,,,,,
1.035,3.60608,2.5875,2587.5,153.632,,,,,,,,,,,,
1.03806,3.60499,2.59514,2595.14,154.086,,,,,,,,,,,,
1.04111,3.60391,2.60278,2602.78,154.539,,,,,,,,,,,,
1.04417,3.60284,2.61042,2610.42,154.993,,,,,,,,,,,,
1.04722,3.60177,2.61806,2618.06,155.447,,,,,,,,,,,,
1.05028,3.60072,2.62569,2625.69,155.9,,,,,,,,,,,,
1.05333,3.59966,2.63333,2633.33,156.354,,,,,,,,,,,,
1.05639,3.59862,2.64097,2640.97,156.807,,,,,,,,,,,,
1.05944,3.59757,2.64861,2648.61,157.261,,,,,,,,,,,,
1.0625,3.59654,2.65625,2656.25,157.714,,,,,,,,,,,,
1.06556,3.59551,2.66389,2663.89,158.168,,,,,,,,,,,,
1.06861,3.59449,2.67153,2671.53,158.621,,,,,,,,,,,,
1.07167,3.59347,2.67917,2679.17,159.075,,,,,,,,,,,,
1.07472,3.59245,2.68681,2686.81,159.529,,,,,,,,,,,,
1.07778,3.59145,2.69444,2694.44,159.982,,,,,,,,,,,,
1.08083,3.59044,2.70208,2702.08,160.436,,,,,,,,,,,,
1.08389,3.58944,2.70972,2709.72,160.889,,,,,,,,,,,,
1.08694,3.58845,2.71736,2717.36,161.343,,,,,,,,,,,,
1.09,3.58746,2.725,2725,161.796,,,,,,,,,,,,
1.09306,3.58647,2.73264,2732.64,162.25,,,,,,,,,,,,
1.09611,3.58549,2.74028,2740.28,162.703,,,,,,,,,,,,
1.09917,3.58451,2.74792,2747.92,163.157,,,,,,,,,,,,
1.10222,3.58354,2.75556,2755.56,163.611,,,,,,,,,,,,
1.10528,3.58257,2.76319,2763.19,164.064,,,,,,,,,,,,
1.10833,3.5816,2.77083,2770.83,164.518,,,,,,,,,,,,
1.11139,3.58063,2.77847,2778.47,164.971,,,,,,,,,,,,
1.11444,3.57967,2.78611,2786.11,165.425,,,,,,,,,,,,
1.1175,3.57871,2.79375,2793.75,165.878,,,,,,,,,,,,
1.12056,3.57775,2.80139,2801.39,166.332,,,,,,,,,,,,
1.12361,3.5768,2.80903,2809.03,166.785,,,,,,,,,,,,
1.12667,3.57585,2.81667,2816.67,167.239,,,,,,,,,,,,
1.12972,3.57489,2.82431,2824.31,167.693,,,,,,,,,,,,
1.13278,3.57394,2.83194,2831.94,168.146,,,,,,,,,,,,
1.13583,3.573,2.83958,2839.58,168.6,,,,,,,,,,,,
1.13889,3.57205,2.84722,2847.22,169.053,,,,,,,,,,,,
1.14194,3.5711,2.85486,2854.86,169.507,,,,,,,,,,,,
1.145,3.57016,2.8625,2862.5,169.96,,,,,,,,,,,,
1.14806,3.56921,2.87014,2870.14,170.414,,,,,,,,,,,,
1.15111,3.56827,2.87778,2877.78,170.867,,,,,,,,,,,,
1.15417,3.56732,2.88542,2885.42,171.321,,,,,,,,,,,,
1.15722,3.56638,2.89306,2893.06,171.775,,,,,,,,,,,,
1.16028,3.56543,2.90069,2900.69,172.228,,,,,,,,,,,,
1.16333,3.56449,2.90833,2908.33,172.682,,,,,,,,,,,,
1.16639,3.56354,2.91597,2915.97,173.135,,,,,,,,,,,,
1.16944,3.5626,2.92361,2923.61,173.589,,,,,,,,,,,,
1.1725,3.56165,2.93125,2931.25,174.042,,,,,,,,,,,,
1.17556,3.5607,2.93889,2938.89,174.496,,,,,,,,,,,,
1.17861,3.55975,2.94653,2946.53,174.949,,,,,,,,,,,,
1.18167,3.5588,2.95417,2954.17,175.403,,,,,,,,,,,,
1.18472,3.55784,2.96181,2961.81,175.857,,,,,,,,,,,,
1.18778,3.55689,2.96944,2969.44,176.31,,,,,,,,,,,,
1.19083,3.55593,2.97708,2977.08,176.764,,,,,,,,,,,,
1.19389,3.55497,2.98472,2984.72,177.217,,,,,,,,,,,,
1.19694,3.554,2.99236,2992.36,177.671,,,,,,,,,,,,
1.2,3.55303,3,3000,178.124,,,,,,,,,,,,
1.20306,3.55206,3.00764,3007.64,178.578,,,,,,,,,,,,
1.20611,3.55109,3.01528,3015.28,179.032,,,,,,,,,,,,
1.20917,3.55011,3.02292,3022.92,179.485,,,,,,,,,,,,
1.21222,3.54912,3.03056,3030.56,179.939,,,,,,,,,,,,
1.21528,3.54814,3.03819,3038.19,180.392,,,,,,,,,,,,
1.21833,3.54714,3.04583,3045.83,180.846,,,,,,,,,,,,
1.22139,3.54615,3.05347,3053.47,181.299,,,,,,,,,,,,
1.22444,3.54514,3.06111,3061.11,181.753,,,,,,,,,,,,
1.2275,3.54414,3.06875,3068.75,182.206,,,,,,,,,,,,
1.23056,3.54312,3.07639,3076.39,182.66,,,,,,,,,,,,
1.23361,3.5421,3.08403,3084.03,183.114,,,,,,,,,,,,
1.23667,3.54108,3.09167,3091.67,183.567,,,,,,,,,,,,
1.23972,3.54005,3.09931,3099.31,184.021,,,,,,,,,,,,
1.24278,3.53901,3.10694,3106.94,184.474,,,,,,,,,,,,
1.24583,3.53796,3.11458,3114.58,184.928,,,,,,,,,,,,
1.24889,3.53691,3.12222,3122.22,185.381,,,,,,,,,,,,
1.25194,3.53585,3.12986,3129.86,185.835,,,,,,,,,,,,
1.255,3.53478,3.1375,3137.5,186.288,,,,,,,,,,,,
1.25806,3.5337,3.14514,3145.14,186.742,,,,,,,,,,,,
1.26111,3.53261,3.15278,3152.78,187.196,,,,,,,,,,,,
1.26417,3.53152,3.16042,3160.42,187.649,,,,,,,,,,,,
1.26722,3.53042,3.16806,3168.06,188.103,,,,,,,,,,,,
1.27028,3.5293,3.17569,3175.69,188.556,,,,,,,,,,,,
1.27333,3.52818,3.18333,3183.33,189.01,,,,,,,,,,,,
1.27639,3.52705,3.19097,3190.97,189.463,,,,,,,,,,,,
1.27944,3.52591,3.19861,3198.61,189.917,,,,,,,,,,,,
1.2825,3.52476,3.20625,3206.25,190.37,,,,,,,,,,,,
1.28556,3.5236,3.21389,3213.89,190.824,,,,,,,,,,,,
1.28861,3.52242,3.22153,3221.53,191.278,,,,,,,,,,,,
1.29167,3.52124,3.22917,3229.17,191.731,,,,,,,,,,,,
1.29472,3.52005,3.23681,3236.81,192.185,,,,,,,,,,,,
1.29778,3.51884,3.24444,3244.44,192.638,,,,,,,,,,,,
1.30083,3.51762,3.25208,3252.08,193.092,,,,,,,,,,,,
1.30389,3.51639,3.25972,3259.72,193.545,,,,,,,,,,,,
1.30694,3.51515,3.26736,3267.36,193.999,,,,,,,,,,,,
1.31,3.5139,3.275,3275,194.452,,,,,,,,,,,,
1.31306,3.51263,3.28264,3282.64,194.906,,,,,,,,,,,,
1.31611,3.51135,3.29028,3290.28,195.36,,,,,,,,,,,,
1.31917,3.51006,3.29792,3297.92,195.813,,,,,,,,,,,,
1.32222,3.50876,3.30556,3305.56,196.267,,,,,,,,,,,,
1.32528,3.50744,3.31319,3313.19,196.72,,,,,,,,,,,,
1.32833,3.50612,3.32083,3320.83,197.174,,,,,,,,,,,,
1.33139,3.50477,3.32847,3328.47,197.627,,,,,,,,,,,,
1.33444,3.50342,3.33611,3336.11,198.081,,,,,,,,,,,,
1.3375,3.50205,3.34375,3343.75,198.534,,,,,,,,,,,,
1.34056,3.50067,3.35139,3351.39,198.988,,,,,,,,,,,,
1.34361,3.49928,3.35903,3359.03,199.442,,,,,,,,,,,,
1.34667,3.49787,3.36667,3366.67,199.895,,,,,,,,,,,,
1.34972,3.49645,3.37431,3374.31,200.349,,,,,,,,,,,,
1.35278,3.49502,3.38194,3381.94,200.802,,,,,,,,,,,,
1.35583,3.49357,3.38958,3389.58,201.256,,,,,,,,,,,,
1.35889,3.49211,3.39722,3397.22,201.709,,,,,,,,,,,,
1.36194,3.49064,3.40486,3404.86,202.163,,,,,,,,,,,,
1.365,3.48916,3.4125,3412.5,202.617,,,,,,,,,,,,
1.36806,3.48767,3.42014,3420.14,203.07,,,,,,,,,,,,
1.37111,3.48616,3.42778,3427.78,203.524,,,,,,,,,,,,
1.37417,3.48464,3.43542,3435.42,203.977,,,,,,,,,,,,
1.37722,3.48311,3.44306,3443.06,204.431,,,,,,,,,,,,
1.38028,3.48157,3.45069,3450.69,204.884,,,,,,,,,,,,
1.38333,3.48002,3.45833,3458.33,205.338,,,,,,,,,,,,
1.38639,3.47846,3.46597,3465.97,205.791,,,,,,,,,,,,
1.38944,3.47689,3.47361,3473.61,206.245,,,,,,,,,,,,
1.3925,3.47531,3.48125,3481.25,206.699,,,,,,,,,,,,
1.39556,3.47372,3.48889,3488.89,207.152,,,,,,,,,,,,
1.39861,3.47212,3.49653,3496.53,207.606,,,,,,,,,,,,
1.40167,3.47052,3.50417,3504.17,208.059,,,,,,,,,,,,
1.40472,3.4689,3.51181,3511.81,208.513,,,,,,,,,,,,
1.40778,3.46728,3.51944,3519.44,208.966,,,,,,,,,,,,
1.41083,3.46566,3.52708,3527.08,209.42,,,,,,,,,,,,
1.41389,3.46403,3.53472,3534.72,209.873,,,,,,,,,,,,
1.41694,3.46239,3.54236,3542.36,210.327,,,,,,,,,,,,
1.42,3.46075,3.55,3550,210.781,,,,,,,,,,,,
1.42306,3.4591,3.55764,3557.64,211.234,,,,,,,,,,,,
1.42611,3.45745,3.56528,3565.28,211.688,,,,,,,,,,,,
1.42917,3.4558,3.57292,3572.92,212.141,,,,,,,,,,,,
1.43222,3.45415,3.58056,3580.56,212.595,,,,,,,,,,,,
1.43528,3.45249,3.58819,3588.19,213.048,,,,,,,,,,,,
1.43833,3.45083,3.59583,3595.83,213.502,,,,,,,,,,,,
1.44139,3.44918,3.60347,3603.47,213.955,,,,,,,,,,,,
1.44444,3.44752,3.61111,3611.11,214.409,,,,,,,,,,,,
1.4475,3.44587,3.61875,3618.75,214.863,,,,,,,,,,,,
1.45056,3.44421,3.62639,3626.39,215.316,,,,,,,,,,,,
1.45361,3.44256,3.63403,3634.03,215.77,,,,,,,,,,,,
1.45667,3.44092,3.64167,3641.67,216.223,,,,,,,,,,,,
1.45972,3.43927,3.64931,3649.31,216.677,,,,,,,,,,,,
1.46278,3.43763,3.65694,3656.94,217.13,,,,,,,,,,,,
1.46583,3.436,3.66458,3664.58,217.584,,,,,,,,,,,,
1.46889,3.43436,3.67222,3672.22,218.037,,,,,,,,,,,,
1.47194,3.43274,3.67986,3679.86,218.491,,,,,,,,,,,,
1.475,3.43112,3.6875,3687.5,218.945,,,,,,,,,,,,
1.47806,3.42951,3.69514,3695.14,219.398,,,,,,,,,,,,
1.48111,3.42791,3.70278,3702.78,219.852,,,,,,,,,,,,
1.48417,3.42631,3.71042,3710.42,220.305,,,,,,,,,,,,
1.48722,3.42472,3.71806,3718.06,220.759,,,,,,,,,,,,
1.49028,3.42314,3.72569,3725.69,221.212,,,,,,,,,,,,
1.49333,3.42157,3.73333,3733.33,221.666,,,,,,,,,,,,
1.49639,3.42001,3.74097,3740.97,222.119,,,,,,,,,,,,
1.49944,3.41846,3.74861,3748.61,222.573,,,,,,,,,,,,
1.5025,3.41691,3.75625,3756.25,223.027,,,,,,,,,,,,
1.50556,3.41538,3.76389,3763.89,223.48,,,,,,,,,,,,
1.50861,3.41386,3.77153,3771.53,223.934,,,,,,,,,,,,
1.51167,3.41235,3.77917,3779.17,224.387,,,,,,,,,,,,
1.51472,3.41084,3.78681,3786.81,224.841,,,,,,,,,,,,
1.51778,3.40935,3.79444,3794.44,225.294,,,,,,,,,,,,
1.52083,3.40787,3.80208,3802.08,225.748,,,,,,,,,,,,
1.52389,3.4064,3.80972,3809.72,226.201,,,,,,,,,,,,
1.52694,3.40494,3.81736,3817.36,226.655,,,,,,,,,,,,
1.53,3.4035,3.825,3825,227.109,,,,,,,,,,,,
1.53306,3.40206,3.83264,3832.64,227.562,,,,,,,,,,,,
1.53611,3.40063,3.84028,3840.28,228.016,,,,,,,,,,,,
1.53917,3.39921,3.84792,3847.92,228.469,,,,,,,,,,,,
1.54222,3.39781,3.85556,3855.56,228.923,,,,,,,,,,,,
1.54528,3.39641,3.86319,3863.19,229.376,,,,,,,,,,,,
1.54833,3.39502,3.87083,3870.83,229.83,,,,,,,,,,,,
1.55139,3.39365,3.87847,3878.47,230.284,,,,,,,,,,,,
1.55444,3.39228,3.88611,3886.11,230.737,,,,,,,,,,,,
1.5575,3.39092,3.89375,3893.75,231.191,,,,,,,,,,,,
1.56056,3.38957,3.90139,3901.39,231.644,,,,,,,,,,,,
1.56361,3.38823,3.90903,3909.03,232.098,,,,,,,,,,,,
1.56667,3.3869,3.91667,3916.67,232.551,,,,,,,,,,,,
1.56972,3.38557,3.92431,3924.31,233.005,,,,,,,,,,,,
1.57278,3.38425,3.93194,3931.94,233.458,,,,,,,,,,,,
1.57583,3.38294,3.93958,3939.58,233.912,,,,,,,,,,,,
1.57889,3.38163,3.94722,3947.22,234.366,,,,,,,,,,,,
1.58194,3.38033,3.95486,3954.86,234.819,,,,,,,,,,,,
1.585,3.37904,3.9625,3962.5,235.273,,,,,,,,,,,,
1.58806,3.37775,3.97014,3970.14,235.726,,,,,,,,,,,,
1.59111,3.37646,3.97778,3977.78,236.18,,,,,,,,,,,,
1.59417,3.37517,3.98542,3985.42,236.633,,,,,,,,,,,,
1.59722,3.37389,3.99306,3993.06,237.087,,,,,,,,,,,,
1.60028,3.37261,4.00069,4000.69,237.54,,,,,,,,,,,,
1.60333,3.37133,4.00833,4008.33,237.994,,,,,,,,,,,,
1.60639,3.37005,4.01597,4015.97,238.448,,,,,,,,,,,,
1.60944,3.36876,4.02361,4023.61,238.901,,,,,,,,,,,,
1.6125,3.36748,4.03125,4031.25,239.355,,,,,,,,,,,,
1.61556,3.36619,4.03889,4038.89,239.808,,,,,,,,,,,,
1.61861,3.36489,4.04653,4046.53,240.262,,,,,,,,,,,,
1.62167,3.36359,4.05417,4054.17,240.715,,,,,,,,,,,,
1.62472,3.36228,4.06181,4061.81,241.169,,,,,,,,,,,,
1.62778,3.36097,4.06944,4069.44,241.622,,,,,,,,,,,,
1.63083,3.35964,4.07708,4077.08,242.076,,,,,,,,,,,,
1.63389,3.35831,4.08472,4084.72,242.53,,,,,,,,,,,,
1.63694,3.35696,4.09236,4092.36,242.983,,,,,,,,,,,,
1.64,3.35559,4.1,4100,243.437,,,,,,,,,,,,
1.64306,3.35421,4.10764,4107.64,243.89,,,,,,,,,,,,
1.64611,3.35281,4.11528,4115.28,244.344,,,,,,,,,,,,
1.64917,3.35139,4.12292,4122.92,244.797,,,,,,,,,,,,
1.65222,3.34995,4.13056,4130.56,245.251,,,,,,,,,,,,
1.65528,3.34848,4.13819,4138.19,245.704,,,,,,,,,,,,
1.65833,3.34699,4.14583,4145.83,246.158,,,,,,,,,,,,
1.66139,3.34546,4.15347,4153.47,246.612,,,,,,,,,,,,
1.66444,3.34391,4.16111,4161.11,247.065,,,,,,,,,,,,
1.6675,3.34232,4.16875,4168.75,247.519,,,,,,,,,,,,
1.67056,3.34069,4.17639,4176.39,247.972,,,,,,,,,,,,
1.67361,3.33902,4.18403,4184.03,248.426,,,,,,,,,,,,
1.67667,3.33731,4.19167,4191.67,248.879,,,,,,,,,,,,
1.67972,3.33556,4.19931,4199.31,249.333,,,,,,,,,,,,
1.68278,3.33375,4.20694,4206.94,249.786,,,,,,,,,,,,
1.68583,3.33189,4.21458,4214.58,250.24,,,,,,,,,,,,
1.68889,3.32997,4.22222,4222.22,250.694,,,,,,,,,,,,
1.69194,3.32799,4.22986,4229.86,251.147,,,,,,,,,,,,
1.695,3.32594,4.2375,4237.5,251.601,,,,,,,,,,,,
1.69806,3.32383,4.24514,4245.14,252.054,,,,,,,,,,,,
1.70111,3.32164,4.25278,4252.78,252.508,,,,,,,,,,,,
1.70417,3.31937,4.26042,4260.42,252.961,,,,,,,,,,,,
1.70722,3.31703,4.26806,4268.06,253.415,,,,,,,,,,,,
1.71028,3.31459,4.27569,4275.69,253.869,,,,,,,,,,,,
1.71333,3.31207,4.28333,4283.33,254.322,,,,,,,,,,,,
1.71639,3.30945,4.29097,4290.97,254.776,,,,,,,,,,,,
1.71944,3.30674,4.29861,4298.61,255.229,,,,,,,,,,,,
1.7225,3.30392,4.30625,4306.25,255.683,,,,,,,,,,,,
1.72556,3.30099,4.31389,4313.89,256.136,,,,,,,,,,,,
1.72861,3.29796,4.32153,4321.53,256.59,,,,,,,,,,,,
1.73167,3.29481,4.32917,4329.17,257.043,,,,,,,,,,,,
1.73472,3.29154,4.33681,4336.81,257.497,,,,,,,,,,,,
1.73778,3.28816,4.34444,4344.44,257.951,,,,,,,,,,,,
1.74083,3.28465,4.35208,4352.08,258.404,,,,,,,,,,,,
1.74389,3.28102,4.35972,4359.72,258.858,,,,,,,,,,,,
1.74694,3.27727,4.36736,4367.36,259.311,,,,,,,,,,,,
1.75,3.27339,4.375,4375,259.765,,,,,,,,,,,,
1.75306,3.26939,4.38264,4382.64,260.218,,,,,,,,,,,,
1.75611,3.26527,4.39028,4390.28,260.672,,,,,,,,,,,,
1.75917,3.26102,4.39792,4397.92,261.125,,,,,,,,,,,,
1.76222,3.25665,4.40556,4405.56,261.579,,,,,,,,,,,,
1.76528,3.25217,4.41319,4413.19,262.033,,,,,,,,,,,,
1.76833,3.24758,4.42083,4420.83,262.486,,,,,,,,,,,,
1.77139,3.24288,4.42847,4428.47,262.94,,,,,,,,,,,,
1.77444,3.23807,4.43611,4436.11,263.393,,,,,,,,,,,,
1.7775,3.23318,4.44375,4443.75,263.847,,,,,,,,,,,,
1.78056,3.22819,4.45139,4451.39,264.3,,,,,,,,,,,,
1.78361,3.22312,4.45903,4459.03,264.754,,,,,,,,,,,,
1.78667,3.21798,4.46667,4466.67,265.207,,,,,,,,,,,,
1.78972,3.21278,4.47431,4474.31,265.661,,,,,,,,,,,,
1.79278,3.20752,4.48194,4481.94,266.115,,,,,,,,,,,,
1.79583,3.20222,4.48958,4489.58,266.568,,,,,,,,,,,,
1.79889,3.19687,4.49722,4497.22,267.022,,,,,,,,,,,,
1.80194,3.1915,4.50486,4504.86,267.475,,,,,,,,,,,,
1.805,3.1861,4.5125,4512.5,267.929,,,,,,,,,,,,
1.80806,3.1807,4.52014,4520.14,268.382,,,,,,,,,,,,
1.81111,3.17528,4.52778,4527.78,268.836,,,,,,,,,,,,
1.81417,3.16986,4.53542,4535.42,269.289,,,,,,,,,,,,
1.81722,3.16445,4.54306,4543.06,269.743,,,,,,,,,,,,
1.82028,3.15905,4.55069,4550.69,270.197,,,,,,,,,,,,
1.82333,3.15367,4.55833,4558.33,270.65,,,,,,,,,,,,
1.82639,3.1483,4.56597,4565.97,271.104,,,,,,,,,,,,
1.82944,3.14295,4.57361,4573.61,271.557,,,,,,,,,,,,
1.8325,3.13762,4.58125,4581.25,272.011,,,,,,,,,,,,
1.83556,3.13231,4.58889,4588.89,272.464,,,,,,,,,,,,
1.83861,3.12701,4.59653,4596.53,272.918,,,,,,,,,,,,
1.84167,3.12173,4.60417,4604.17,273.371,,,,,,,,,,,,
1.84472,3.11647,4.61181,4611.81,273.825,,,,,,,,,,,,
1.84778,3.11121,4.61944,4619.44,274.279,,,,,,,,,,,,
1.85083,3.10595,4.62708,4627.08,274.732,,,,,,,,,,,,
1.85389,3.10069,4.63472,4634.72,275.186,,,,,,,,,,,,
1.85694,3.09542,4.64236,4642.36,275.639,,,,,,,,,,,,
1.86,3.09013,4.65,4650,276.093,,,,,,,,,,,,
1.86306,3.08481,4.65764,4657.64,276.546,,,,,,,,,,,,
1.86611,3.07945,4.66528,4665.28,277,,,,,,,,,,,,
1.86917,3.07405,4.67292,4672.92,277.453,,,,,,,,,,,,
1.87222,3.06859,4.68056,4680.56,277.907,,,,,,,,,,,,
1.87528,3.06307,4.68819,4688.19,278.361,,,,,,,,,,,,
1.87833,3.05746,4.69583,4695.83,278.814,,,,,,,,,,,,
1.88139,3.05176,4.70347,4703.47,279.268,,,,,,,,,,,,
1.88444,3.04596,4.71111,4711.11,279.721,,,,,,,,,,,,
1.8875,3.04004,4.71875,4718.75,280.175,,,,,,,,,,,,
1.89056,3.03398,4.72639,4726.39,280.628,,,,,,,,,,,,
1.89361,3.02778,4.73403,4734.03,281.082,,,,,,,,,,,,
1.89667,3.02142,4.74167,4741.67,281.536,,,,,,,,,,,,
1.89972,3.01488,4.74931,4749.31,281.989,,,,,,,,,,,,
1.90278,3.00815,4.75694,4756.94,282.443,,,,,,,,,,,,
1.90583,3.00121,4.76458,4764.58,282.896,,,,,,,,,,,,
1.90889,2.99405,4.77222,4772.22,283.35,,,,,,,,,,,,
1.91194,2.98664,4.77986,4779.86,283.803,,,,,,,,,,,,
1.915,2.97897,4.7875,4787.5,284.257,,,,,,,,,,,,
1.91806,2.97102,4.79514,4795.14,284.71,,,,,,,,,,,,
1.92111,2.96277,4.80278,4802.78,285.164,,,,,,,,,,,,
1.92417,2.9542,4.81042,4810.42,285.618,,,,,,,,,,,,
1.92722,2.94529,4.81806,4818.06,286.071,,,,,,,,,,,,
1.93028,2.93601,4.82569,4825.69,286.525,,,,,,,,,,,,
1.93333,2.92635,4.83333,4833.33,286.978,,,,,,,,,,,,
1.93639,2.91628,4.84097,4840.97,287.432,,,,,,,,,,,,
1.93944,2.90577,4.84861,4848.61,287.885,,,,,,,,,,,,
1.9425,2.8948,4.85625,4856.25,288.339,,,,,,,,,,,,
1.94556,2.88334,4.86389,4863.89,288.792,,,,,,,,,,,,
1.94861,2.87136,4.87153,4871.53,289.246,,,,,,,,,,,,
1.95167,2.85883,4.87917,4879.17,289.7,,,,,,,,,,,,
1.95472,2.84573,4.88681,4886.81,290.153,,,,,,,,,,,,
1.95778,2.83201,4.89444,4894.44,290.607,,,,,,,,,,,,
1.96083,2.81764,4.90208,4902.08,291.06,,,,,,,,,,,,
1.96389,2.8026,4.90972,4909.72,291.514,,,,,,,,,,,,
1.96694,2.78683,4.91736,4917.36,291.967,,,,,,,,,,,,
1.97,2.7703,4.925,4925,292.421,,,,,,,,,,,,
1.97306,2.75297,4.93264,4932.64,292.874,,,,,,,,,,,,
1.97611,2.73479,4.94028,4940.28,293.328,,,,,,,,,,,,
1.97917,2.71571,4.94792,4947.92,293.782,,,,,,,,,,,,
1.98222,2.6957,4.95556,4955.56,294.235,,,,,,,,,,,,
1.98528,2.67469,4.96319,4963.19,294.689,,,,,,,,,,,,
1.98833,2.65264,4.97083,4970.83,295.142,,,,,,,,,,,,
1.99139,2.62948,4.97847,4978.47,295.596,,,,,,,,,,,,
1.99444,2.60515,4.98611,4986.11,296.049,,,,,,,,,,,,
1.9975,2.5796,4.99375,4993.75,296.503,,,,,,,,,,,,
2.00056,2.55276,5.00139,5001.39,296.956,,,,,,,,,,,,
2.00361,2.52455,5.00903,5009.03,297.41,,,,,,,,,,,,
2.00615,2.50001,5.01538,5015.38,297.787,,,,,,,,,,,,